File: 03Roentgenreflektometrie/daten/roentgen_unt.uxd
; (content of file C:\DIFFDAT1\Adam_Skodras\roentgen_unt.raw)
_FILEVERSION = 2
_SAMPLE =
_+SAMPLE =
_SITE = Deutschland
_USER = Administrator
_GONIOMETER_CODE = 21
_STAGE_CODE = 19
; Goniometer : D8 theta/theta, stage : Unknown
_SAMPLE_CHANGER_CODE = 0
_ATTACHMENTS_CODE = 0
_GONIOMETER_RADIUS = 350
_FIXED_DIVSLIT = 0.6
_FIXED_SAMPLESLIT = 0
_FIXED_DETSLIT = 11.66
_MONOCHROMATOR = 0
; Incident beam monochromator : None
_THIN_FILM = N
_BETA_FILTER = Y
_FIXED_ANTISLIT = 8.34
_ANALYZER_CODE = 0
; Received beam analyzer : None
_DATEMEASURED = "09-Jun-2015 16:30:29"
_WL_UNIT = A
_WL1 = 1.5406
_WL2 = 1.54439
_WL3 = 1.39222
_WLRATIO = 0.5
_ANODE = Cu

; Data for range 1
_DRIVE = THETA
_STEPTIME = 10
_STEPSIZE = 0.005
_STEPMODE = C
_START = 0
_THETA = 0
_2THETA = 0.15
_KHI = 0
_PHI = 90
_X = 13
_Y = -5.2
_Z = -1
_DETECTOR = 5
; Detector type : Unknown
_DETECTORSLIT = out
_AUX1 = 0
_AUX2 = 0
_AUX3 = 0
_TIMESTARTED = 3
_TEMP_RATE = -1
_TEMP_DELAY = -1
_KV = 40
_MA = 35
_RANGE_WL = 1.5406
_3DPLANE = 0
_V4_COUNTERS_MASK = 4096
_V4_DRIVES_MASK = 0
_V4_ENCODERS_MASK = 0
_2THETACOUNTS = 1
; THETA  PSD
   0.0000     700658
   0.0050     641875
   0.0100     579027
   0.0150     526703
   0.0200     482122
   0.0250     436103
   0.0300     381238
   0.0350     342177
   0.0400     314896
   0.0450     282060
   0.0500     261967
   0.0550     242156
   0.0600     213703
   0.0650     197857
   0.0700     182843
   0.0750     164539
   0.0800     149360
   0.0850     132560
   0.0900     118502
   0.0950     107422
   0.1000      95695
   0.1050      87370
   0.1100      80683
   0.1150      71352
   0.1200      64599
   0.1250      60187
   0.1300      54204
   0.1350      48368
   0.1400      44701
   0.1450      40405
   0.1500      36056
   0.1550      32172
   0.1600      28147
   0.1650      23797
   0.1700      19399
   0.1750      15772
   0.1800      12411
   0.1850       9691
   0.1900       6956
   0.1950       4901
   0.2000       3389
   0.2050       2168
   0.2100       1530
   0.2150       1249
   0.2200       1011
   0.2250        813
   0.2300        647
   0.2350        541
   0.2400        486
   0.2450        437
   0.2500        373
   0.2550        319
   0.2600        306
   0.2650        247
   0.2700        234
   0.2750        218
   0.2800        232
   0.2850        204
   0.2900        174
   0.2950        167
   0.3000        154
   0.3050        148
   0.3100        134
   0.3150        104
   0.3200        134
   0.3250        136
   0.3300        113
   0.3350        108
   0.3400        125
   0.3450         78
   0.3500         95
   0.3550         92
   0.3600        106
   0.3650        107
   0.3700         92
   0.3750         69
   0.3800         77
   0.3850         94
   0.3900         79
   0.3950         81
   0.4000         65
   0.4050         58
   0.4100         75
   0.4150         67
   0.4200         65
   0.4250         64
   0.4300         57
   0.4350         67
   0.4400         40
   0.4450         45
   0.4500         53
   0.4550         46
   0.4600         39
   0.4650         41
   0.4700         51
   0.4750         41
   0.4800         42
   0.4850         40
   0.4900         46
   0.4950         48
   0.5000         33
   0.5050         46
   0.5100         38
   0.5150         30
   0.5200         41
   0.5250         36
   0.5300         38
   0.5350         32
   0.5400         35
   0.5450         20
   0.5500         29
   0.5550         21
   0.5600         19
   0.5650         31
   0.5700         29
   0.5750         25
   0.5800         35
   0.5850         26
   0.5900         28
   0.5950         26
   0.6000         35
   0.6050         22
   0.6100         22
   0.6150         23
   0.6200         23
   0.6250         29
   0.6300         21
   0.6350         24
   0.6400         10
   0.6450         17
   0.6500         22
   0.6550         15
   0.6600         17
   0.6650         17
   0.6700         22
   0.6750         25
   0.6800         21
   0.6850         20
   0.6900         11
   0.6950         13
   0.7000         24
   0.7050         11
   0.7100         19
   0.7150         11
   0.7200         16
   0.7250         14
   0.7300         18
   0.7350         17
   0.7400         15
   0.7450         10
   0.7500         14
   0.7550         15
   0.7600          7
   0.7650         11
   0.7700         16
   0.7750         14
   0.7800         20
   0.7850         14
   0.7900          9
   0.7950         13
   0.8000         16
   0.8050          7
   0.8100         12
   0.8150         12
   0.8200          5
   0.8250          7
   0.8300         12
   0.8350         15
   0.8400          9
   0.8450          7
   0.8500         16
   0.8550         10
   0.8600         10
   0.8650          3
   0.8700         13
   0.8750         12
   0.8800          7
   0.8850          8
   0.8900         11
   0.8950          7
   0.9000          6
   0.9050         10
   0.9100          8
   0.9150         12
   0.9200          7
   0.9250          8
   0.9300          6
   0.9350          7
   0.9400          9
   0.9450         10
   0.9500         12
   0.9550         16
   0.9600         11
   0.9650          9
   0.9700          8
   0.9750          8
   0.9800          8
   0.9850          6
   0.9900          8
   0.9950         10
   1.0000          6
   1.0050          8
   1.0100         14
   1.0150          3
   1.0200         13
   1.0250          7
   1.0300          9
   1.0350          7
   1.0400         15
   1.0450          5
   1.0500         11
   1.0550          8
   1.0600          9
   1.0650          8
   1.0700          7
   1.0750         11
   1.0800          6
   1.0850         13
   1.0900         12
   1.0950          9
   1.1000          8
   1.1050         14
   1.1100          3
   1.1150          7
   1.1200          7
   1.1250          9
   1.1300          6
   1.1350          7
   1.1400          7
   1.1450         12
   1.1500         13
   1.1550          9
   1.1600          8
   1.1650          3
   1.1700          5
   1.1750          5
   1.1800          4
   1.1850          8
   1.1900         10
   1.1950          6
   1.2000          7
   1.2050         11
   1.2100          7
   1.2150         10
   1.2200         11
   1.2250          5
   1.2300          5
   1.2350          4
   1.2400          8
   1.2450          7
   1.2500          6
   1.2550         10
   1.2600          1
   1.2650          3
   1.2700          4
   1.2750          5
   1.2800          5
   1.2850          6
   1.2900          5
   1.2950          9
   1.3000          4
   1.3050          5
   1.3100          6
   1.3150          4
   1.3200          4
   1.3250          2
   1.3300         12
   1.3350          3
   1.3400          2
   1.3450          9
   1.3500          5
   1.3550          9
   1.3600          5
   1.3650          6
   1.3700          6
   1.3750          5
   1.3800          4
   1.3850          6
   1.3900          6
   1.3950          6
   1.4000          3
   1.4050          5
   1.4100          6
   1.4150          8
   1.4200          8
   1.4250          5
   1.4300          7
   1.4350          3
   1.4400          5
   1.4450          3
   1.4500          5
   1.4550          3
   1.4600          4
   1.4650          4
   1.4700          7
   1.4750          7
   1.4800          2
   1.4850          2
   1.4900          4
   1.4950          3
   1.5000          4
   1.5050          4
   1.5100          2
   1.5150          4
   1.5200          2
   1.5250          3
   1.5300          5
   1.5350          3
   1.5400          3
   1.5450          1
   1.5500          3
   1.5550          4
   1.5600          5
   1.5650          4
   1.5700          4
   1.5750          2
   1.5800          3
   1.5850          3
   1.5900          2
   1.5950          4
   1.6000          3
   1.6050          3
   1.6100          4
   1.6150          5
   1.6200          3
   1.6250          5
   1.6300          6
   1.6350          5
   1.6400          0
   1.6450          3
   1.6500          5
   1.6550          0
   1.6600          6
   1.6650          4
   1.6700          3
   1.6750          2
   1.6800          6
   1.6850          0
   1.6900          3
   1.6950          3
   1.7000          3
   1.7050          2
   1.7100          2
   1.7150          3
   1.7200          1
   1.7250          2
   1.7300          1
   1.7350          2
   1.7400          1
   1.7450          1
   1.7500          4
   1.7550          2
   1.7600          3
   1.7650          3
   1.7700          6
   1.7750          4
   1.7800          0
   1.7850          2
   1.7900          3
   1.7950          5
   1.8000          2
   1.8050          4
   1.8100          6
   1.8150          3
   1.8200          4
   1.8250          2
   1.8300          2
   1.8350          2
   1.8400          5
   1.8450          5
   1.8500          1
   1.8550          1
   1.8600          1
   1.8650          1
   1.8700          2
   1.8750          1
   1.8800          3
   1.8850          4
   1.8900          2
   1.8950          3
   1.9000          2
   1.9050          2
   1.9100          1
   1.9150          2
   1.9200          2
   1.9250          1
   1.9300          0
   1.9350          2
   1.9400          2
   1.9450          2
   1.9500          5
   1.9550          5
   1.9600          2
   1.9650          1
   1.9700          1
   1.9750          0
   1.9800          0
   1.9850          1
   1.9900          2
   1.9950          0
   2.0000          0
   2.0050          2
   2.0100          6
   2.0150          0
   2.0200          4
   2.0250          3
   2.0300          4
   2.0350          2
   2.0400          0
   2.0450          0
   2.0500          0
   2.0550          1
   2.0600          0
   2.0650          1
   2.0700          2
   2.0750          1
   2.0800          3
   2.0850          2
   2.0900          2
   2.0950          3
   2.1000          2
   2.1050          5
   2.1100          0
   2.1150          1
   2.1200          1
   2.1250          0
   2.1300          1
   2.1350          2
   2.1400          1
   2.1450          0
   2.1500          0
   2.1550          3
   2.1600          2
   2.1650          1
   2.1700          2
   2.1750          1
   2.1800          2
   2.1850          1
   2.1900          0
   2.1950          1
   2.2000          0
   2.2050          2
   2.2100          4
   2.2150          0
   2.2200          2
   2.2250          2
   2.2300          1
   2.2350          0
   2.2400          0
   2.2450          1
   2.2500          0
   2.2550          0
   2.2600          2
   2.2650          2
   2.2700          2
   2.2750          3
   2.2800          2
   2.2850          3
   2.2900          0
   2.2950          2
   2.3000          0
   2.3050          1
   2.3100          0
   2.3150          0
   2.3200          0
   2.3250          1
   2.3300          4
   2.3350          1
   2.3400          1
   2.3450          0
   2.3500          2
   2.3550          2
   2.3600          2
   2.3650          1
   2.3700          0
   2.3750          2
   2.3800          2
   2.3850          0
   2.3900          2
   2.3950          2
   2.4000          0
   2.4050          0
   2.4100          0
   2.4150          0
   2.4200          2
   2.4250          1
   2.4300          0
   2.4350          1
   2.4400          0
   2.4450          0
   2.4500          0
   2.4550          1
   2.4600          1
   2.4650          2
   2.4700          1
   2.4750          0
   2.4800          5
   2.4850          1
   2.4900          2
   2.4950          1
   2.5000          2
   2.5050          0
   2.5100          0
   2.5150          1
   2.5200          2
   2.5250          0
   2.5300          2
   2.5350          1
   2.5400          0
   2.5450          1
   2.5500          2
   2.5550          2
   2.5600          1
   2.5650          2
   2.5700          1
   2.5750          2
   2.5800          1
   2.5850          1
   2.5900          3
   2.5950          2
   2.6000          0
   2.6050          3
   2.6100          2
   2.6150          1
   2.6200          0
   2.6250          0
   2.6300          1
   2.6350          0
   2.6400          3
   2.6450          0
   2.6500          2
   2.6550          2
   2.6600          0
   2.6650          1
   2.6700          0
   2.6750          1
   2.6800          1
   2.6850          2
   2.6900          2
   2.6950          2
   2.7000          2
   2.7050          2
   2.7100          0
   2.7150          0
   2.7200          2
   2.7250          0
   2.7300          0
   2.7350          1
   2.7400          2
   2.7450          1
   2.7500          3
   2.7550          0
   2.7600          0
   2.7650          0
   2.7700          0
   2.7750          1
   2.7800          0
   2.7850          0
   2.7900          0
   2.7950          0
   2.8000          2
   2.8050          0
   2.8100          1
   2.8150          0
   2.8200          1
   2.8250          1
   2.8300          0
   2.8350          1
   2.8400          0
   2.8450          1
   2.8500          1
   2.8550          0
   2.8600          1
   2.8650          1
   2.8700          3
   2.8750          0
   2.8800          1
   2.8850          0
   2.8900          1
   2.8950          1
   2.9000          1
   2.9050          3
   2.9100          2
   2.9150          1
   2.9200          2
   2.9250          1
   2.9300          2
   2.9350          1
   2.9400          0
   2.9450          2
   2.9500          0
   2.9550          0
   2.9600          0
   2.9650          0
   2.9700          1
   2.9750          0
   2.9800          2
   2.9850          0
   2.9900          0
   2.9950          1
   3.0000          0
   3.0050          4
   3.0100          0
   3.0150          0
   3.0200          0
   3.0250          1
   3.0300          0
   3.0350          1
   3.0400          0
   3.0450          0
   3.0500          0
   3.0550          0
   3.0600          1
   3.0650          0
   3.0700          1
   3.0750          1
   3.0800          1
   3.0850          0
   3.0900          1
   3.0950          1
   3.1000          0
   3.1050          0
   3.1100          1
   3.1150          0
   3.1200          0
   3.1250          0
   3.1300          0
   3.1350          0
   3.1400          0
   3.1450          0
   3.1500          0
   3.1550          1
   3.1600          0
   3.1650          0
   3.1700          0
   3.1750          0
   3.1800          0
   3.1850          1
   3.1900          0
   3.1950          0
   3.2000          1
   3.2050          1
   3.2100          0
   3.2150          0
   3.2200          1
   3.2250          0
   3.2300          0
   3.2350          0
   3.2400          0
   3.2450          1
   3.2500          1
   3.2550          1
   3.2600          1
   3.2650          0
   3.2700          1
   3.2750          1
   3.2800          0
   3.2850          0
   3.2900          0
   3.2950          1
   3.3000          1
   3.3050          1
   3.3100          0
   3.3150          0
   3.3200          0
   3.3250          0
   3.3300          0
   3.3350          0
   3.3400          0
   3.3450          0
   3.3500          1
   3.3550          0
   3.3600          0
   3.3650          0
   3.3700          0
   3.3750          0
   3.3800          0
   3.3850          0
   3.3900          1
   3.3950          2
   3.4000          1
   3.4050          3
   3.4100          2
   3.4150          0
   3.4200          1
   3.4250          0
   3.4300          0
   3.4350          3
   3.4400          0
   3.4450          1
   3.4500          0
   3.4550          1
   3.4600          0
   3.4650          0
   3.4700          2
   3.4750          0
   3.4800          0
   3.4850          1
   3.4900          0
   3.4950          0
   3.5000          0
   3.5050          0
   3.5100          1
   3.5150          2
   3.5200          0
   3.5250          0
   3.5300          0
   3.5350          0
   3.5400          1
   3.5450          1
   3.5500          1
   3.5550          1
   3.5600          1
   3.5650          1
   3.5700          2
   3.5750          1
   3.5800          1
   3.5850          0
   3.5900          0
   3.5950          0
   3.6000          1
   3.6050          0
   3.6100          0
   3.6150          1
   3.6200          0
   3.6250          1
   3.6300          0
   3.6350          0
   3.6400          1
   3.6450          1
   3.6500          0
   3.6550          1
   3.6600          1
   3.6650          0
   3.6700          0
   3.6750          0
   3.6800          2
   3.6850          1
   3.6900          0
   3.6950          1
   3.7000          0
   3.7050          0
   3.7100          0
   3.7150          0
   3.7200          0
   3.7250          0
   3.7300          0
   3.7350          0
   3.7400          0
   3.7450          2
   3.7500          0
   3.7550          0
   3.7600          0
   3.7650          0
   3.7700          0
   3.7750          0
   3.7800          1
   3.7850          0
   3.7900          1
   3.7950          0
   3.8000          0
   3.8050          0
   3.8100          0
   3.8150          0
   3.8200          0
   3.8250          1
   3.8300          0
   3.8350          0
   3.8400          0
   3.8450          0
   3.8500          1
   3.8550          1
   3.8600          0
   3.8650          1
   3.8700          0
   3.8750          0
   3.8800          1
   3.8850          1
   3.8900          1
   3.8950          0
   3.9000          1
   3.9050          0
   3.9100          0
   3.9150          0
   3.9200          1
   3.9250          1
   3.9300          0
   3.9350          0
   3.9400          0
   3.9450          0
   3.9500          1
   3.9550          1
   3.9600          0
   3.9650          0
   3.9700          0
   3.9750          0
   3.9800          0
   3.9850          1
   3.9900          0
   3.9950          0
   4.0000          1
   4.0050          0
   4.0100          0
   4.0150          1
   4.0200          0
   4.0250          2
   4.0300          0
   4.0350          0
   4.0400          0
   4.0450          0
   4.0500          1
   4.0550          1
   4.0600          2
   4.0650          1
   4.0700          0
   4.0750          0
   4.0800          0
   4.0850          0
   4.0900          2
   4.0950          1
   4.1000          0
   4.1050          1
   4.1100          1
   4.1150          1
   4.1200          0
   4.1250          0
   4.1300          0
   4.1350          1
   4.1400          0
   4.1450          1
   4.1500          1
   4.1550          0
   4.1600          1
   4.1650          1
   4.1700          0
   4.1750          1
   4.1800          0
   4.1850          0
   4.1900          0
   4.1950          0
   4.2000          1
   4.2050          0
   4.2100          1
   4.2150          1
   4.2200          0
   4.2250          0
   4.2300          2
   4.2350          0
   4.2400          0
   4.2450          1
   4.2500          0
   4.2550          0
   4.2600          1
   4.2650          0
   4.2700          0
   4.2750          0
   4.2800          0
   4.2850          1
   4.2900          0
   4.2950          1
   4.3000          0
   4.3050          0
   4.3100          0
   4.3150          0
   4.3200          0
   4.3250          0
   4.3300          0
   4.3350          0
   4.3400          0
   4.3450          0
   4.3500          0
   4.3550          1
   4.3600          0
   4.3650          0
   4.3700          0
   4.3750          0
   4.3800          0
   4.3850          0
   4.3900          2
   4.3950          1
   4.4000          1
   4.4050          0
   4.4100          0
   4.4150          2
   4.4200          0
   4.4250          0
   4.4300          0
   4.4350          0
   4.4400          0
   4.4450          0
   4.4500          0
   4.4550          0
   4.4600          1
   4.4650          2
   4.4700          0
   4.4750          1
   4.4800          0
   4.4850          0
   4.4900          0
   4.4950          1
   4.5000          1
   4.5050          0
   4.5100          1
   4.5150          0
   4.5200          0
   4.5250          1
   4.5300          0
   4.5350          0
   4.5400          0
   4.5450          0
   4.5500          0
   4.5550          0
   4.5600          0
   4.5650          0
   4.5700          0
   4.5750          0
   4.5800          0
   4.5850          1
   4.5900          0
   4.5950          0
   4.6000          0
   4.6050          1
   4.6100          0
   4.6150          0
   4.6200          0
   4.6250          0
   4.6300          1
   4.6350          0
   4.6400          0
   4.6450          1
   4.6500          0
   4.6550          0
   4.6600          1
   4.6650          0
   4.6700          0
   4.6750          1
   4.6800          0
   4.6850          0
   4.6900          3
   4.6950          0
   4.7000          0
   4.7050          1
   4.7100          1
   4.7150          0
   4.7200          0
   4.7250          0
   4.7300          0
   4.7350          0
   4.7400          0
   4.7450          1
   4.7500          0
   4.7550          0
   4.7600          0
   4.7650          0
   4.7700          0
   4.7750          1
   4.7800          0
   4.7850          0
   4.7900          1
   4.7950          0
   4.8000          0
   4.8050          1
   4.8100          0
   4.8150          0
   4.8200          1
   4.8250          0
   4.8300          1
   4.8350          1
   4.8400          0
   4.8450          0
   4.8500          0
   4.8550          0
   4.8600          0
   4.8650          0
   4.8700          1
   4.8750          2
   4.8800          0
   4.8850          0
   4.8900          0
   4.8950          0
   4.9000          1
   4.9050          1
   4.9100          0
   4.9150          2
   4.9200          1
   4.9250          0
   4.9300          0
   4.9350          0
   4.9400          0
   4.9450          1
   4.9500          0
   4.9550          0
   4.9600          0
   4.9650          1
   4.9700          0
   4.9750          0
   4.9800          1
   4.9850          2
   4.9900          1
   4.9950          0
   5.0000          0